Wavelength      Ele       excit   log gf                         EW
 10065.045      26.0      4.83    -0.288                         91.9
 10065.101      26.0      6.00    -3.898                         91.9
 10070.521      26.0      5.51    -1.948                          6.6
 10080.415      26.0      5.10    -2.856                          5.3
 10081.394      26.0      2.42    -4.544                          6.2
 10086.242      26.0      2.95    -4.079                          5.8
 10087.111      26.0      5.98    -3.922                         12.9
 10089.777      26.0      5.45    -1.317                          8.0
 10093.370      26.0      6.14    -1.039                          7.2
 10093.409      26.0      6.28    -3.526                          7.3
 10094.867      26.0      6.01    -5.372                          5.6
 10114.015      26.0      2.76    -3.705                         15.3
 10137.100      26.0      5.09    -1.650                          9.2
 10142.844      26.0      5.06    -1.422                         14.4
 10145.561      26.0      4.80    -0.177                        105.5
 10153.274      26.0      5.51    -2.220                         12.9
 10153.306      26.0      5.45    -1.192                         13.0
 10155.163      26.0      2.18    -4.225                         15.8
 10156.507      26.0      4.59    -1.707                         11.8
 10167.460      26.0      5.85    -5.530                         19.8
 10167.469      26.0      2.20    -4.114                         19.8
 10191.129      26.0      5.92    -2.919                          9.4
 10191.539      26.0      2.42    -9.008                          8.7
 10195.106      26.0      2.73    -3.589                         21.9
 10198.427      26.0      6.02    -1.268                          5.4
 10216.313      26.0      4.73    -0.062                        127.1
 10218.408      26.0      3.07    -2.760                         40.5
 10227.991      26.0      6.12    -0.355                         19.4
 10230.782      26.0      5.87    -3.186                         21.0
 10230.796      26.0      6.12    -0.334                         21.0
 10243.746      26.0      6.36    -7.475                         10.2
 10243.746      26.0      6.36    -8.530                         10.2
 10252.553      26.0      5.83    -2.914                         10.2
 10258.238      26.0      5.83    -2.457                          5.4
 10262.472      26.0      5.48    -2.395                          7.5
 10262.495      26.0      4.29    -9.831                          7.5
 10265.218      26.0      2.22    -4.533                          7.7
 10273.668      26.0      5.94    -3.148                          8.9
 10273.719      26.0      5.95    -1.866                          8.9
 10277.320      26.0      6.40    -7.278                          7.8
 10277.320      26.0      6.40    -9.042                          7.8
 10283.320      26.0      6.13    -3.412                          5.0
 10283.776      26.0      5.51    -1.673                          5.5
 10297.114      26.0      6.20    -7.764                          5.9
 10299.312      26.0      5.84    -3.734                          7.0
 10299.344      26.0      5.96    -8.045                          7.0
 10299.349      26.0      6.32    -8.673                          7.0
 10307.419      26.0      6.37    -7.817                          5.5
 10307.419      26.0      6.37    -8.384                          5.5
 10307.455      26.0      4.59    -2.060                          5.5
 10312.524      26.0      5.93    -3.385                         15.6
 10327.323      26.0      5.54    -2.704                        134.4
 10332.328      26.0      3.63    -2.938                         10.1
 10333.171      26.0      6.21    -6.554                          8.8
 10333.171      26.0      6.21    -9.476                          8.8
 10333.185      26.0      4.59    -2.657                          8.8
 10340.886      26.0      2.20    -3.574                         46.7
 10345.176      26.0      6.17    -4.494                          6.5
 10347.966      26.0      5.39    -0.548                         36.9
 10347.981      26.0      6.33    -6.141                         36.9
 10353.805      26.0      5.39    -0.816                         23.2
 10353.834      26.0      5.51    -2.332                         23.2
 10362.705      26.0      5.48    -2.391                         12.2
 10364.063      26.0      5.45    -0.962                         17.3
 10379.000      26.0      2.22    -4.145                         18.0
 10388.746      26.0      5.45    -1.102                          7.8
 10395.796      26.0      2.18    -3.390                         60.5
 10400.783      26.0      5.54    -2.774                          5.2
 10423.029      26.0      2.69    -3.627                         22.6
 10423.743      26.0      3.07    -2.918                         29.7
 10423.795      26.0      5.84    -3.371                         29.7
 10435.355      26.0      4.73    -1.950                          9.6
 10448.575      26.0      6.28    -7.124                          6.4
 10448.576      26.0      6.28    -7.735                          6.4
 10453.153      26.0      5.48    -9.848                          8.4
 10469.653      26.0      3.88    -1.187                         89.2
 10469.673      26.0      6.09    -4.956                         89.2
 10501.507      26.0      6.11    -4.206                         18.2
 10529.595      26.0      6.35    -8.652                         15.1
 10529.595      26.0      6.35    -9.890                         15.1
 10532.235      26.0      3.93    -1.482                         64.1
 10535.710      26.0      6.21    -0.108                         27.6
 10546.350      26.0      5.87    -4.110                          6.8
 10546.434      26.0      6.27    -1.547                          6.8
 10555.650      26.0      5.45    -1.478                         11.4
 10577.139      26.0      3.30    -3.137                         16.7
 10611.687      26.0      6.17     0.021                         38.8
 10616.721      26.0      3.27    -3.128                         15.0
 10674.071      26.0      6.17    -0.458                         14.8
 10683.104      26.0      3.63    -3.892                        194.6
 10687.795      26.0      5.51    -1.805                         17.5
 10716.341      26.0      5.93    -4.112                          5.5
 10717.780      26.0      5.97    -4.006                          5.4
 10717.808      26.0      5.54    -0.425                          5.4
 10725.172      26.0      5.93    -3.441                         15.8
 10725.186      26.0      3.64    -2.763                         15.8
 10753.005      26.0      3.96    -1.847                         39.3
 10754.001      26.0      6.66    -2.557                         43.7
 10754.282      26.0      5.59    -1.473                          5.8
 10754.753      26.0      2.83    -4.481                          5.9
 10761.442      26.0      6.22    -0.708                          6.8
 10771.229      26.0      5.59    -1.817                          5.5
 10775.500      26.0      6.22    -0.807                          6.4
 10780.694      26.0      3.24    -3.290                          9.0
 10783.050      26.0      3.11    -2.566                         46.5
 10785.389      26.0      5.62    -1.380                          7.3
 10799.578      26.0      6.29    -7.366                        103.7
 10818.276      26.0      3.96    -1.948                         34.8
 10821.643      26.0      6.43    -8.708                          8.1
 10833.964      26.0      5.59    -1.019                         39.6
 10837.997      26.0      5.41    -7.963                         19.5
 10846.819      26.0      4.28    -5.624                         10.7
 10849.467      26.0      5.54    -1.495                         45.9
 10853.018      26.0      6.02    -6.000                          7.4
 10862.639      26.0      6.15    -3.344                         14.8
 10862.672      26.0      6.19    -3.207                         14.7
 10863.519      26.0      4.73    -0.903                         64.5
 10863.559      26.0      6.40    -3.608                         64.5
 10879.880      26.0      5.95    -3.601                          8.8
 10881.746      26.0      6.28    -5.221                         26.2
 10881.758      26.0      2.85    -3.553                         26.2
 10884.264      26.0      3.93    -1.927                         40.6
 10884.270      26.0      5.62    -4.741                         40.7
 10885.366      26.0      6.15    -3.444                        137.2
 10885.405      26.0      5.61    -5.008                        137.2
 10892.254      26.0      5.34    -3.434                         56.0
 10893.693      26.0      5.87    -2.972                          9.6
 10896.299      26.0      3.07    -2.692                         42.8
 10913.036      26.0      5.54    -3.182                          5.6
 10930.858      26.0      6.27    -4.802                         43.0
 10950.825      26.0      6.18    -4.079                          8.9
 10950.833      26.0      6.33    -9.804                          8.9
 10967.116      26.0      6.37    -5.128                         10.1
 10967.891      26.0      5.91    -2.827                         12.5
 10979.348      26.0      5.83    -3.469                        167.6
 10979.828      26.0      6.07    -3.891                         56.7
 10984.580      26.0      6.17    -4.259                         88.9
 11004.112      26.0      6.17    -4.923                         34.5
 11013.235      26.0      4.80    -1.390                         37.8
 11026.789      26.0      3.94    -2.771                         22.4
 11053.514      26.0      3.98    -3.270                         76.5
 11054.709      26.0      6.52    -8.672                         44.2
 11056.071      26.0      5.88    -7.642                         24.1
 11061.070      26.0      5.96    -6.081                          8.1
 11062.329      26.0      5.97    -2.638                         70.4
 11066.950      26.0      6.02    -2.269                          7.6
 11068.598      26.0      6.24    -7.986                         18.4
 11069.195      26.0      5.68    -8.796                         39.2
 11074.637      26.0      5.91    -4.136                        107.7
 11075.251      26.0      6.24    -6.176                         19.4
 11076.106      26.0      6.17    -4.998                         13.9
 11078.658      26.0      6.39    -5.874                        107.3
 11079.528      26.0      6.09    -5.251                        103.5
 11098.941      26.0      5.84    -4.210                         65.0
 11102.238      26.0      6.13    -5.253                         23.7
 11114.250      26.0      5.98    -2.445                         46.4
 11114.297      26.0      6.04    -5.684                         71.7
 11119.796      26.0      2.85    -2.202                         83.3
 11124.090      26.0      6.42    -4.473                         57.2
 11140.736      26.0      6.53    -4.165                         76.3
 11143.299      26.0      6.41    -9.601                        118.5
 11641.802      26.0      4.58    -2.888                         14.8
 11676.301      26.0      4.96    -2.712                         80.9
 11705.091      26.0      6.55    -7.893                         31.4
 11705.091      26.0      6.55    -8.141                         31.4
 11708.359      26.0      6.34    -4.356                          9.4
 11726.986      26.0      5.93    -2.534                          5.4
 11727.734      26.0      6.33    -1.011                         30.9
 11743.695      26.0      5.95    -1.759                          7.0
 11763.421      26.0      6.40    -3.346                         87.8
 11816.916      26.0      6.00    -6.216                        119.7
 11825.062      26.0      6.30    -4.436                         21.7
 11841.669      26.0      6.30    -1.367                         30.1
 11856.214      26.0      6.31    -7.864                        100.0
 11858.395      26.0      5.99    -3.002                          8.3
 11858.427      26.0      5.99    -2.667                          8.3
 11858.469      26.0      6.30    -3.509                          8.3
 11890.489      26.0      5.54    -0.519                         64.4
 11907.979      26.0      5.93    -2.349                         77.2
 11909.901      26.0      5.36    -3.974                         56.5
 11910.388      26.0      6.57    -7.787                         23.9
 11922.775      26.0      6.36    -2.147                         30.1
 11942.437      26.0      5.07    -3.567                         56.2
 11943.356      26.0      6.40    -8.475                          9.7
 11943.392      26.0      5.95    -1.584                          9.7
 11947.565      26.0      6.41    -3.989                        117.8
 11951.687      26.0      6.43    -5.929                         52.4
 11951.687      26.0      6.43    -7.905                         52.4
 11954.454      26.0      6.32    -5.820                         36.6
 11960.235      26.0      6.24    -3.364                        139.2
 11969.351      26.0      6.28    -4.835                         31.2
 11973.842      26.0      6.36    -5.096                         12.6
 11981.866      26.0      6.40    -4.119                        101.8
 11982.933      26.0      6.40    -4.625                         33.4
 11993.994      26.0      6.43    -3.084                        133.2
 12015.639      26.0      6.21    -5.232                        184.2
 12025.483      26.0      3.42    -7.644                          6.2
 12048.401      26.0      2.22   -13.268                         10.0
 12050.435      26.0      5.59    -2.939                          9.7
 12051.807      26.0      6.54    -8.214                         26.0
 12051.807      26.0      6.54    -9.860                         26.0
 12053.083      26.0      4.56    -1.543                         39.6
 12066.261      26.0      6.32    -3.791                         17.5
 12107.325      26.0      6.55    -7.165                         32.5
 12113.692      26.0      5.31    -6.821                         31.3
 12115.956      26.0      6.25    -2.430                         89.6
 12117.172      26.0      5.36    -5.229                          6.3
 12119.496      26.0      4.59    -1.637                         29.5
 12123.714      26.0      6.07    -6.174                         22.7
 12127.354      26.0      5.96    -7.176                         53.3
 12131.180      26.0      5.95    -1.274                          6.4
 12134.565      26.0      6.42    -8.165                         42.1
 12135.598      26.0      6.27    -6.538                         73.9
 12135.965      26.0      6.42    -5.804                         29.8
 12142.645      26.0      6.33    -5.034                         61.6
 12146.966      26.0      6.61    -8.612                         10.2
 12146.966      26.0      6.61    -8.636                         10.2
 12159.090      26.0      6.33    -4.399                         28.4
 12159.177      26.0      5.54    -7.523                         28.4
 12160.180      26.0      6.07    -5.138                          9.4
 12173.724      26.0      6.31    -3.084                          5.7
 12173.918      26.0      6.07    -4.268                          7.2
 12175.743      26.0      6.22    -3.695                         42.0
 12180.452      26.0      6.43    -1.537                          8.2
 12190.099      26.0      3.63    -2.330                         52.0
 12197.466      26.0      5.70    -2.380                          7.8
 12213.299      26.0      6.40    -2.819                         18.6
 12213.336      26.0      4.64    -1.829                         18.6
 12227.113      26.0      4.61    -1.354                         50.4
 12234.249      26.0      6.43    -6.224                         72.9
 12239.505      26.0      6.00    -4.679                         49.3
 12241.401      26.0      6.33    -6.356                         27.7
 12244.923      26.0      3.64    -3.692                         11.6
 12245.286      26.0      6.51    -8.135                         10.6
 12245.286      26.0      6.51    -8.555                         10.6
 12280.769      26.0      6.39    -4.511                         10.3
 12280.784      26.0      6.33    -2.452                         10.3
 12327.412      26.0      6.43    -3.907                         14.9
 12340.483      26.0      2.28    -5.122                          7.9
 12342.916      26.0      4.64    -1.449                         41.4
 12423.654      26.0      6.09    -7.687                         14.0
 12426.105      26.0      6.00    -6.172                          5.2
 12457.073      26.0      6.37    -2.962                         25.3
 12458.166      26.0      6.29    -3.694                          7.8
 12459.764      26.0      5.62    -1.436                          5.0
 12478.763      26.0      5.35    -5.643                          6.0
 12510.519      26.0      4.96    -1.604                         11.8
 12556.998      26.0      2.28    -3.626                         33.4
 12569.070      26.0      6.37    -6.216                         52.1
 12577.649      26.0      6.37    -5.446                          5.3
 12581.131      26.0      5.95    -2.276                          9.6
 12607.855      26.0      6.33    -5.011                         91.2
 12615.928      26.0      4.64    -1.505                         28.8
 12629.409      26.0      6.59    -8.853                        177.8
 12629.409      26.0      6.59    -8.918                        177.8
 12638.705      26.0      4.56    -0.774                        110.0
 12648.742      26.0      4.61    -1.140                         45.0
 12670.953      26.0      6.43    -5.611                        119.2
 12670.954      26.0      6.43    -5.580                        119.2
 12680.020      26.0      3.60    -7.948                        152.2
 12680.236      26.0      6.40    -1.530                         56.5
 12680.704      26.0      5.48    -2.343                        199.8
 12687.638      26.0      6.14    -3.485                         39.1
 12707.397      26.0      5.30    -3.881                         11.3
 12716.785      26.0      6.31    -4.183                        143.9
 12716.839      26.0      6.01    -5.020                        143.9
 12741.122      26.0      6.44    -3.245                         78.1
 12741.185      26.0      6.13    -4.992                         78.1
 12748.368      26.0      6.43    -3.289                        125.1
 12767.374      26.0      6.37    -4.255                         52.2
 12779.412      26.0      5.37    -6.308                         60.3
 12782.419      26.0      6.44    -3.186                         52.8
 12791.344      26.0      6.24    -3.651                         38.0
 12795.690      26.0      6.11    -2.965                         15.8
 12807.152      26.0      3.64    -2.453                         36.0
 12808.223      26.0      5.83    -4.844                         16.3
 12808.243      26.0      4.99    -1.363                         16.3
 12815.975      26.0      6.38    -3.830                         30.0
 12824.860      26.0      3.02    -3.812                         19.5
 12838.417      26.0      6.11    -5.172                         14.4
 12838.454      26.0      5.84    -3.133                         14.4
 12840.556      26.0      6.13    -3.440                         24.4
 12840.574      26.0      4.96    -1.330                         24.4
 12863.833      26.0      6.40    -3.726                          7.3
 12877.168      26.0      6.56    -7.921                          9.5
 12879.768      26.0      2.28    -3.458                         64.9
 12896.110      26.0      6.37    -3.725                         20.3
 12896.118      26.0      4.91    -1.426                         20.3
 12918.822      26.0      6.31    -5.860                         13.7
 12932.342      26.0      6.39    -4.882                         18.1
 12933.006      26.0      5.02    -1.547                         12.6
 12934.666      26.0      5.39    -0.907                         29.4
 12936.321      26.0      0.00    -9.151                         11.0
 12962.968      26.0      5.33    -4.307                         49.3
 12979.192      26.0      5.52    -2.671                         42.4
 13006.685      26.0      2.99    -3.722                         53.4
 13014.841      26.0      5.45    -1.683                         11.1
 13065.223      26.0      6.70    -5.200                        120.5
 13065.226      26.0      6.70    -4.189                        120.6
 13065.262      26.0      5.36    -8.196                        120.6
 13069.444      26.0      5.39    -4.652                         38.0
 13069.495      26.0      6.44    -3.366                         38.8
 13121.350      26.0      5.32    -5.023                        130.9
 13134.916      26.0      6.31    -3.719                         57.9
 13146.904      26.0      5.07    -5.252                         13.3
 13147.920      26.0      5.39    -0.830                         55.6
 13183.276      26.0      6.67    -6.369                         18.1
 13183.276      26.0      6.67    -7.375                         18.1
 13262.472      26.0      5.52    -3.079                         10.1
 13282.471      26.0      6.59    -9.245                         14.1
 13282.471      26.0      6.59    -9.966                         14.1
 13282.535      26.0      6.36    -3.136                         15.3
 13352.173      26.0      5.31    -0.513                         91.4
 13390.538      26.0      6.37    -3.323                          7.3
 13392.072      26.0      6.27    -4.734                        117.8
 13392.102      26.0      5.35    -0.122                        117.9
 13419.560      26.0      6.37    -2.051                         35.6
 13448.838      26.0      6.68    -6.061                         53.5
 13448.838      26.0      6.68    -6.391                         53.5
 14641.095      26.0      6.28    -1.360                          9.8
 14641.659      26.0      6.28    -0.738                         16.1
 14808.319      26.0      5.38    -1.377                         66.7
 14853.658      26.0      6.40    -4.180                          8.0
 14854.079      26.0      6.80    -8.047                         24.3
 14854.095      26.0      5.83    -2.096                         24.3
 14963.761      26.0      2.86    -5.088                          8.9
 14979.698      26.0      6.17    -0.450                         30.6
 14982.778      26.0      6.61    -8.710                         23.1
 14982.803      26.0      6.26    -0.897                         23.2
 14982.814      26.0      2.42    -9.523                         23.4
 14996.378      26.0      6.75    -9.648                          5.5
 15005.104      26.0      5.65    -3.772                          7.9
 15017.702      26.0      6.22     0.056                         68.0
 15051.749      26.0      5.35     0.425                        189.3
 15073.061      26.0      6.58    -8.055                         47.7
 15077.241      26.0      2.83    -4.092                         72.6
 15077.287      26.0      5.59    -0.049                         72.3
 15077.289      26.0      2.18    -4.204                         72.3
 15094.697      26.0      6.36     0.599                         98.9
 15095.860      26.0      6.22    -0.860                         72.8
 15099.106      26.0      6.30    -1.267                          5.2
 15120.505      26.0      5.45    -0.798                         20.0
 15122.380      26.0      5.62    -0.215                        104.6
 15130.952      26.0      6.64    -4.459                        118.5
 15130.961      26.0      6.64    -6.276                        118.5
 15136.127      26.0      5.83    -0.179                         47.6
 15176.715      26.0      5.92    -0.686                         31.8
 15179.524      26.0      6.65    -7.121                        126.7
 15179.526      26.0      6.65    -6.342                        126.7
 15184.839      26.0      6.17    -2.603                        157.2
 15186.211      26.0      6.40    -1.787                         56.9
 15194.492      26.0      2.22    -4.808                         13.7
 15198.801      26.0      6.31    -1.494                          6.5
 15207.526      26.0      5.38     0.322                        197.2
 15213.022      26.0      6.31    -0.952                         13.8
 15216.880      26.0      6.71    -5.029                         10.1
 15216.885      26.0      5.51    -2.514                          9.8
 15219.618      26.0      5.59    -0.825                        155.1
 15224.731      26.0      5.96    -0.331                         52.1
 15227.878      26.0      6.31    -1.905                          6.0
 15228.646      26.0      6.67    -9.043                          6.8
 15230.323      26.0      6.42    -0.947                         76.0
 15233.675      26.0      6.33    -3.930                          6.0
 15237.773      26.0      5.79    -1.947                          9.2
 15239.715      26.0      6.42    -0.004                         71.2
 15244.974      26.0      5.59    -0.268                        138.9
 15245.852      26.0      6.69    -6.734                         34.6
 15246.499      26.0      6.31    -2.641                         13.4
 15251.009      26.0      6.14    -1.526                         30.3
 15253.829      26.0      6.31    -2.697                        117.4
 15255.316      26.0      5.41    -3.558                          6.3
 15260.533      26.0      6.44    -3.678                         81.7
 15263.550      26.0      6.64    -2.478                        129.8
 15267.025      26.0      5.07    -2.147                          6.2
 15275.778      26.0      5.93    -2.464                         28.8
 15289.990      26.0      6.28    -0.492                         13.7
 15290.668      26.0      6.30    -5.507                          8.2
 15291.367      26.0      6.28    -0.913                         15.1
 15293.129      26.0      6.80    -8.073                         56.0
 15293.129      26.0      6.80    -9.169                         56.0
 15293.138      26.0      6.31     0.145                         56.3
 15293.194      26.0      6.44    -2.217                         48.4
 15296.096      26.0      6.30    -3.438                         16.9
 15296.163      26.0      5.06    -1.783                         19.7
 15305.606      26.0      6.28    -1.122                         25.9
 15335.383      26.0      5.41     0.087                        190.1
 15343.788      26.0      5.65    -0.582                         73.2
 15345.632      26.0      6.66    -2.680                         29.3
 15348.968      26.0      5.95    -1.271                         23.0
 15353.558      26.0      6.59    -2.868                         39.7
 15373.357      26.0      6.47    -5.687                          5.7
 15375.348      26.0      5.92    -0.995                         20.2
 15394.673      26.0      5.62     0.006                        127.2
 15394.673      26.0      5.96    -0.490                        127.2
 15394.696      26.0      2.47    -8.905                        127.3
 15416.223      26.0      2.43    -9.672                         23.6
 15427.621      26.0      6.45    -0.784                          6.5
 15451.301      26.0      6.45    -0.213                         21.8
 15451.943      26.0      6.29    -0.641                          8.4
 15451.979      26.0      6.34    -1.761                          8.4
 15476.503      26.0      6.32    -0.734                          6.3
 15485.456      26.0      6.28    -1.222                         16.5
 15490.339      26.0      2.20    -4.574                         13.5
 15490.884      26.0      6.29    -0.748                         28.3
 15493.515      26.0      6.37    -1.740                          6.3
 15493.556      26.0      6.46    -2.565                          6.3
 15496.700      26.0      6.29    -0.360                         45.4
 15499.379      26.0      6.35    -3.149                         42.4
 15500.801      26.0      6.32    -0.010                         57.0
 15501.323      26.0      6.29     0.408                         81.2
 15502.176      26.0      6.35    -1.236                          6.8
 15514.282      26.0      6.29    -0.384                         23.0
 15519.364      26.0      6.29    -2.924                         40.0
 15522.600      26.0      6.72    -5.178                         16.6
 15522.609      26.0      6.32    -0.921                         16.5
 15524.311      26.0      5.79    -0.864                         13.6
 15527.209      26.0      6.32    -1.530                         13.4
 15531.752      26.0      5.64    -0.236                         86.0
 15534.245      26.0      5.64    -0.384                        113.9
 15537.697      26.0      6.32    -0.031                         46.0
 15542.079      26.0      5.64    -0.336                         89.2
 15550.439      26.0      6.32    -0.145                         38.0
 15550.482      26.0      6.37    -3.009                         38.0
 15551.435      26.0      6.35    -0.383                         40.9
 15553.577      26.0      5.48    -3.803                          6.8
 15554.520      26.0      6.28    -2.101                         10.9
 15554.542      26.0      6.41    -3.060                         10.9
 15560.786      26.0      6.35    -0.487                         30.0
 15563.337      26.0      6.34    -2.536                          6.7
 15565.183      26.0      6.67    -7.092                         14.0
 15565.186      26.0      6.67    -6.345                         14.0
 15565.225      26.0      6.32    -0.570                         13.9
 15566.727      26.0      6.35    -0.428                         31.6
 15571.121      26.0      5.88    -1.414                          7.8
 15571.751      26.0      6.32    -1.162                         13.7
 15579.080      26.0      6.32    -1.854                         10.5
 15588.262      26.0      6.37     0.435                        102.7
 15590.049      26.0      6.24    -0.770                         33.4
 15591.493      26.0      6.24     0.861                        188.6
 15591.500      26.0      6.36    -0.570                        188.6
 15593.750      26.0      5.03    -1.923                         26.8
 15598.871      26.0      6.24    -0.281                         19.2
 15604.167      26.0      5.87    -1.174                        149.4
 15604.223      26.0      6.24    -1.044                        147.9
 15611.146      26.0      3.42    -3.765                         50.1
 15613.628      26.0      6.35    -0.517                         54.8
 15613.642      26.0      6.56    -5.541                         54.8
 15614.096      26.0      6.35    -4.268                         36.6
 15631.948      26.0      5.35     0.122                        175.7
 15645.018      26.0      6.31    -0.352                         33.7
 15647.416      26.0      6.33    -1.836                          8.8
 15648.510      26.0      5.43    -0.596                         88.6
 15648.515      26.0      6.66    -3.122                         88.6
 15652.874      26.0      6.25    -0.170                         74.7
 15656.634      26.0      5.87    -1.280                          8.5
 15662.016      26.0      5.83     0.382                        162.1
 15665.243      26.0      5.98    -0.338                         56.6
 15670.127      26.0      6.21    -0.982                         13.8
 15671.006      26.0      6.33    -0.282                         26.2
 15671.869      26.0      5.92    -1.218                         13.5
 15673.154      26.0      6.25     0.650                         24.4
 15676.585      26.0      5.11    -2.006                         20.1
 15677.015      26.0      6.25    -0.112                         33.4
 15677.521      26.0      6.25    -0.587                        103.2
 15680.066      26.0      6.21    -3.140                         41.8
 15682.516      26.0      6.37    -0.137                         32.3
 15691.855      26.0      6.25    -0.729                        119.0
 15692.747      26.0      5.38    -0.378                         67.5
 15723.586      26.0      5.62     0.334                        155.6
 15731.415      26.0      6.45    -0.291                         13.7
 15733.512      26.0      6.25    -1.546                         18.9
 15741.918      26.0      5.65    -0.106                        104.8
 15751.717      26.0      6.36    -0.979                         11.2
 15752.936      26.0      6.35    -6.897                         74.1
 15756.943      26.0      6.28    -2.465                         95.2
 15770.619      26.0      6.30     0.448                         88.4
 15774.071      26.0      6.30     0.529                        134.6
 15788.998      26.0      6.25     0.373                         69.5
 15798.233      26.0      5.95    -0.671                         11.2
 15798.562      26.0      6.25     0.047                        150.0
 15810.137      26.0      5.83    -2.341                         79.0
 15816.633      26.0      5.96    -0.500                         40.8
 15818.142      26.0      5.59     0.576                        193.1
 15819.134      26.0      6.30     0.009                         70.9
 15820.443      26.0      5.88    -1.917                         94.9
 15821.712      26.0      5.64    -0.814                         49.8
 15822.817      26.0      5.64     0.181                        141.3
 15829.298      26.0      6.30    -1.241                         11.0
 15829.305      26.0      6.76    -4.072                         11.0
 15835.167      26.0      6.30     0.738                        159.3
 15837.646      26.0      6.30     0.327                        100.1
 15840.193      26.0      6.36    -2.237                         35.5
 15841.277      26.0      6.45    -2.824                         27.4
 15845.219      26.0      5.98    -1.102                         16.0
 15854.444      26.0      6.47    -0.875                          9.8
 15863.712      26.0      6.26     0.194                         90.9
 15864.649      26.0      6.36    -0.747                         13.5
 15868.524      26.0      5.59     0.169                        141.2
 15868.574      26.0      6.36     0.405                        141.2
 15878.444      26.0      5.62    -1.022                         82.2
 15886.228      26.0      5.31    -4.843                        103.4
 15891.162      26.0      6.31     0.069                         34.8
 15892.398      26.0      6.31    -0.025                        122.7
 15892.964      26.0      6.34    -0.997                         69.9
 15894.755      26.0      6.21    -0.582                         33.4
 15895.228      26.0      6.26     0.419                        117.1
 15896.557      26.0      6.34     0.257                         11.9
 15898.018      26.0      6.31    -0.189                         55.3
 15898.034      26.0      6.37    -3.499                         55.2
 15899.255      26.0      6.31     0.246                         37.0
 15899.589      26.0      6.36    -0.147                         77.2
 15901.521      26.0      5.92    -1.251                         62.8
 15904.326      26.0      6.37     0.475                        136.4
 15906.044      26.0      5.62    -0.149                        142.8
 15911.305      26.0      5.87     0.175                        117.6
 15912.594      26.0      6.38     0.079                         60.4
 15917.332      26.0      6.45    -0.394                         22.7
 15928.161      26.0      5.95    -1.091                         35.8
 15929.475      26.0      6.31    -0.391                         31.2
 15934.020      26.0      6.31    -0.302                         43.7
 15938.105      26.0      6.34    -0.876                         11.7
 15938.920      26.0      6.37     0.070                         71.7
 15940.920      26.0      5.81    -1.641                         21.5
 15941.851      26.0      6.36     0.272                         71.8
 15943.847      26.0      6.37    -2.092                         18.9
 15943.867      26.0      6.62    -4.362                         18.9
 15952.632      26.0      6.34    -7.849                         19.5
 15962.560      26.0      6.42    -0.076                         59.7
 15964.847      26.0      6.73    -5.223                        111.8
 15964.867      26.0      5.92     0.136                        111.8
 15967.657      26.0      6.37    -0.648                         69.5
 15979.127      26.0      5.97    -3.943                         16.2
 15980.728      26.0      6.26     0.938                        199.8
 15982.074      26.0      6.27    -3.937                         24.5
 15988.600      26.0      5.97    -2.209                         60.1
 15997.729      26.0      5.92    -3.683                         61.8
 16009.611      26.0      5.43    -0.467                        105.0
 16012.860      26.0      5.59    -2.327                          6.8
 16019.790      26.0      6.35    -0.592                         17.0
 16029.425      26.0      6.35    -1.643                         22.0
 16035.099      26.0      6.56    -6.578                        183.8
 16037.821      26.0      6.26    -0.581                         83.5
 16040.657      26.0      5.87     0.321                        157.7
 16049.026      26.0      6.83    -9.419                         10.2
 16049.054      26.0      6.35    -4.458                         10.2
 16051.736      26.0      6.26    -0.766                         14.9
 16064.729      26.0      6.35    -0.600                        144.7
 16070.183      26.0      5.96    -0.625                         24.6
 16071.399      26.0      6.27     0.109                         82.5
 16072.244      26.0      6.35     0.375                         36.2
 16075.919      26.0      6.35    -3.823                         59.4
 16088.733      26.0      6.35    -1.512                         79.9
 16100.284      26.0      6.35    -0.060                         71.0
 16102.395      26.0      6.35    -2.145                        183.0
 16102.411      26.0      5.87     0.521                        183.1
 16126.063      26.0      6.73    -5.687                         20.0
 16153.247      26.0      5.35    -0.680                        114.8
 16156.560      26.0      5.96    -0.308                         58.3
 16165.032      26.0      6.32     0.986                        181.0
 16171.933      26.0      6.38    -0.454                         38.0
 16174.947      26.0      6.38    -2.071                         92.5
 16174.978      26.0      6.38     0.176                         92.4
 16177.088      26.0      6.28    -1.277                          8.2
 16177.994      26.0      6.38    -0.423                         26.1
 16179.585      26.0      6.32     0.260                         88.2
 16179.612      26.0      5.90    -2.257                         88.0
 16180.903      26.0      6.28     0.307                         77.1
 16185.802      26.0      6.39     0.268                         92.6
 16186.410      26.0      6.37    -2.929                         25.1
 16187.854      26.0      6.32    -2.525                          9.5
 16195.063      26.0      6.39     0.464                        131.8
 16198.503      26.0      5.41    -0.440                        102.7
 16203.331      26.0      6.32    -0.879                         13.1
 16204.255      26.0      6.32     0.178                        107.1
 16207.747      26.0      6.32     0.544                        138.4
 16213.004      26.0      6.32    -0.440                         31.5
 16213.540      26.0      6.28     0.276                         99.6
 16215.647      26.0      6.62    -5.446                        191.8
 16225.621      26.0      6.38     0.292                         83.5
 16227.120      26.0      7.05    -8.459                         15.7
 16227.154      26.0      6.24    -1.740                         15.7
 16228.655      26.0      6.38    -0.905                          9.8
 16231.649      26.0      6.38     0.580                        142.8
 16235.969      26.0      5.92     0.002                         85.0
 16240.872      26.0      6.32    -0.221                         10.1
 16243.068      26.0      6.28    -0.909                          7.0
 16245.765      26.0      6.32    -1.782                         17.2
 16246.462      26.0      6.28    -0.045                         61.8
 16252.553      26.0      6.32    -0.329                         36.1
 16258.915      26.0      6.24    -1.043                         19.5
 16272.470      26.0      6.28    -1.817                         20.3
 16277.483      26.0      6.32    -3.144                         36.3
 16284.772      26.0      6.40    -0.230                         94.9
 16292.843      26.0      5.92    -0.099                         64.4
 16318.693      26.0      5.92    -3.139                         65.5
 16331.527      26.0      5.98    -0.538                         55.5
 16333.141      26.0      5.64    -0.602                         17.5
 16345.497      26.0      6.47    -0.787                         18.6
 16362.043      26.0      6.68    -5.285                          5.9
 16366.340      26.0      6.36    -0.821                         33.1
 16373.842      26.0      6.41    -4.597                         51.4
 16377.391      26.0      6.37    -0.482                         38.2
 16377.402      26.0      6.33    -2.769                         38.2
 16377.799      26.0      6.33    -2.809                          6.8
 16384.144      26.0      6.36    -0.582                         46.7
 16393.147      26.0      5.49    -2.246                          5.8
 16394.392      26.0      5.96     0.348                        144.0
 16404.604      26.0      6.37     0.565                        113.0
 16407.789      26.0      6.29    -0.006                         76.3
 16407.869      26.0      6.28    -4.757                         77.2
 16410.390      26.0      6.28    -1.239                          8.7
 16412.174      26.0      6.39    -0.908                         10.8
 16412.971      26.0      6.29    -0.416                         46.9
 16436.624      26.0      5.92    -0.116                         72.0
 16440.397      26.0      6.29    -0.254                         53.9
 16444.819      26.0      5.83     0.656                        199.4
 16446.653      26.0      6.37    -2.894                         25.0
 16466.550      26.0      6.66    -1.971                         19.1
 16466.924      26.0      6.39    -0.007                         89.9
 16471.756      26.0      6.37    -0.054                         17.6
 16474.080      26.0      6.02    -0.959                         56.9
 16476.936      26.0      6.29    -0.613                         32.1
 16481.231      26.0      6.39    -0.163                         27.9
 16484.019      26.0      6.65    -3.534                         29.6
 16494.430      26.0      6.39    -0.532                         35.2
 16494.705      26.0      6.29    -0.640                         10.1
 16515.671      26.0      5.56    -2.103                         51.2
 16517.226      26.0      6.29    -0.951                        164.1
 16519.415      26.0      6.39    -1.984                         31.7
 16521.514      26.0      6.29    -0.753                         29.5
 16521.571      26.0      6.31    -2.105                         29.5
 16522.077      26.0      6.29     0.286                         73.7
 16524.469      26.0      6.34     0.662                        148.8
 16525.389      26.0      2.88    -9.179                         13.1
 16531.986      26.0      6.29    -0.872                         73.6
 16539.196      26.0      6.34    -0.145                         53.7
 16540.873      26.0      6.34    -0.663                         23.4
 16541.426      26.0      5.95    -2.151                         56.1
 16541.965      26.0      6.34     0.162                         32.0
 16544.670      26.0      6.34    -0.025                         56.0
 16551.997      26.0      6.41     0.321                         75.7
 16559.680      26.0      6.40     0.192                         50.6
 16561.767      26.0      5.98     0.245                        114.5
 16566.732      26.0      5.54    -1.961                         20.3
 16573.403      26.0      5.63    -7.645                         12.8
 16586.051      26.0      5.62    -0.647                         18.0
 16607.637      26.0      6.34    -1.529                         34.0
 16612.124      26.0      5.92    -1.481                         14.3
 16612.129      26.0      6.69    -9.621                         14.2
 16612.146      26.0      6.69    -8.853                         14.2
 16612.764      26.0      6.40     0.280                         72.5
 16645.877      26.0      5.96    -0.041                         97.4
 16661.382      26.0      6.34    -0.501                         87.7
 16665.484      26.0      6.02    -0.033                         92.5
 16693.075      26.0      6.42    -0.158                         46.7
 16708.914      26.0      6.61    -1.398                         42.4
 16720.730      26.0      6.38    -0.806                         30.9
 16721.465      26.0      6.38    -0.520                         37.6
 16724.688      26.0      6.38    -0.416                         17.2
 16725.443      26.0      6.38    -0.597                         14.2
 16753.068      26.0      6.38     0.407                         95.7
 16764.111      26.0      6.43    -2.833                         32.0
 16786.588      26.0      6.35    -0.414                          8.5
 16792.227      26.0      6.35    -1.083                          9.5
 16794.210      26.0      6.57    -0.441                         21.8
 16799.651      26.0      5.87    -1.384                         59.3
 16807.438      26.0      5.83    -1.147                          9.6
 16822.674      26.0      6.66    -3.643                          5.8
 16822.691      26.0      5.11    -2.070                          5.8
 16833.055      26.0      5.96    -0.816                         17.3
 16843.231      26.0      5.87    -1.143                         14.0
 16863.434      26.0      6.31    -4.459                         18.7
 16864.014      26.0      5.61    -3.753                          8.6
 16864.048      26.0      6.35    -1.933                         11.7
 16864.082      26.0      6.22    -1.538                         11.8
 16865.516      26.0      6.41    -0.759                          6.3
 16874.119      26.0      6.35    -0.151                         12.2
 16892.364      26.0      6.35    -2.939                         20.1
 16892.387      26.0      6.31    -2.485                         21.5
 16895.184      26.0      6.35    -3.044                         12.6
 16898.886      26.0      6.31    -3.516                         18.8
 16928.626      26.0      5.92    -1.882                         30.8
 16995.465      26.0      6.11    -3.467                         16.5
 16996.230      26.0      6.11    -2.013                        108.8
 17007.492      26.0      6.42    -0.566                         10.3
 17011.098      26.0      5.95     0.044                        115.4
 17037.790      26.0      6.39    -0.899                         34.1
 17094.434      26.0      6.67    -0.150                         10.4
 17094.469      26.0      6.42    -5.091                         10.2
 17130.956      26.0      6.35    -0.926                         26.2
 17161.106      26.0      6.02    -0.024                         95.4
 17166.204      26.0      5.95    -1.799                         50.3
 17199.151      26.0      5.95    -1.113                          5.1
 17204.301      26.0      6.02    -0.208                        105.6
 17221.398      26.0      6.43    -0.721                         19.8
 17282.246      26.0      6.30    -6.592                         57.5
 17282.294      26.0      6.43     0.090                         59.8
 17282.333      26.0      6.32    -6.412                         63.1
 17293.116      26.0      6.32    -1.462                         22.1
 17293.645      26.0      6.32    -0.675                         27.2
 17376.190      26.0      6.69    -3.117                         44.3
 17383.974      26.0      6.67    -2.426                         28.7
 17400.582      26.0      6.37    -0.599                         22.0
 17418.509      26.0      6.32    -0.784                          8.4
 17420.825      26.0      3.88    -2.880                          6.1
 17433.639      26.0      6.41     0.036                         34.9
 17453.843      26.0      6.41    -0.481                         23.4
 17499.983      26.0      5.96    -0.699                         15.2
 17516.059      26.0      6.64    -0.358                         26.2
 17518.069      26.0      5.87    -1.526                         17.9
 17531.174      26.0      6.64    -0.722                          7.9
 17531.180      26.0      5.96    -7.018                          7.9
 17534.741      26.0      6.64    -0.130                         20.9
 17538.636      26.0      5.72    -1.483                         31.4
 17538.645      26.0      5.95    -1.551                         31.4
 17550.927      26.0      6.35    -1.431                         79.9
 17554.373      26.0      6.73    -1.227                         85.9
 17575.321      26.0      6.40    -1.447                          9.4
 17577.796      26.0      6.38    -0.550                         19.1
 17581.905      26.0      6.38    -0.047                         25.7
 17608.695      26.0      6.46     0.224                         81.3
 17637.400      26.0      6.37    -2.626                         81.2
 17644.998      26.0      6.76    -5.490                         19.1
 17649.606      26.0      6.37    -3.810                         60.9
 17673.637      26.0      5.69    -7.159                        103.5
 17675.384      26.0      5.65    -5.937                         10.7
 17683.291      26.0      6.34    -0.870                         40.1
 17683.920      26.0      6.34    -1.079                         85.5
 17714.364      26.0      6.58    -0.779                         30.5
 17717.136      26.0      6.34    -0.324                         19.4
 17728.101      26.0      6.58     0.447                         76.2
 17747.371      26.0      5.92    -1.331                         93.5
 17791.446      26.0      6.72    -0.712                         63.2
 17833.466      26.0      6.71    -4.333                        131.5
 17833.466      26.0      6.71    -5.226                        131.5
 17876.020      26.0      6.45    -2.165                         15.2
 17896.664      26.0      6.40    -2.254                         23.0
 19819.232      26.0      6.73    -6.652                         49.6
 19819.240      26.0      6.73    -6.889                         50.0
 19821.229      26.0      6.31    -7.626                         93.2
 19917.132      26.0      2.22    -8.788                         95.3
 19923.343      26.0      5.02    -1.552                         48.2
 20310.537      26.0      7.00    -7.895                         39.0
 20319.846      26.0      6.77    -3.422                         44.1
 20358.913      26.0      6.79    -5.725                         39.2
 20359.432      26.0      6.67    -4.414                         58.9
 20363.272      26.0      6.07    -0.627                         45.8
 20370.400      26.0      6.43    -1.602                         44.5
 20471.285      26.0      6.45    -2.384                        106.9
 20799.625      26.0      5.71    -8.694                         22.4
 20850.553      26.0      5.80    -6.158                        146.3
 20861.122      26.0      7.01    -5.081                         29.6
 20886.208      26.0      6.00    -4.261                         88.0
 20891.891      26.0      6.76    -2.813                         24.5
 20905.578      26.0      6.44    -0.876                         31.6
 20923.184      26.0      6.73    -4.159                         20.1
 20948.091      26.0      6.12    -0.966                         13.5
 20952.525      26.0      6.47    -3.155                         32.0
 21105.217      26.0      6.61    -0.896                         35.2
 21123.849      26.0      6.48    -4.726                         16.4
 21123.867      26.0      6.07    -0.783                         16.5
 21124.482      26.0      5.33    -1.458                         11.5
 21124.938      26.0      6.66    -3.917                         15.6
 21134.816      26.0      6.62    -2.050                         19.3
 21134.834      26.0      5.78    -6.718                         19.3
 21139.697      26.0      6.99    -9.232                         14.6
 21216.314      26.0      6.46    -0.610                          8.0
 21224.160      26.0      6.76    -3.006                         17.5
 21234.317      26.0      6.73    -2.868                         10.3
 21238.598      26.0      6.40    -2.829                        166.0
 21386.166      26.0      6.17    -1.511                         24.9
 21423.228      26.0      6.66    -3.941                          5.1
 21515.147      26.0      5.34    -2.144                         14.3
 21546.619      26.0      6.62    -2.431                         19.4
 21553.299      26.0      6.70    -0.491                          9.5
 21569.198      26.0      5.37    -4.902                         14.3
 21572.269      26.0      6.70    -0.325                         21.3
 21735.462      26.0      6.17    -0.626                         27.3
 21790.484      26.0      6.59    -6.283                         16.4
 21813.977      26.0      5.85    -1.391                          7.5
 21816.566      26.0      6.78    -0.688                         14.6
 21817.838      26.0      6.78    -0.662                         14.5
 21821.857      26.0      7.04    -5.952                         46.4
 21832.980      26.0      6.78     0.058                         22.0
 21851.381      26.0      3.64    -3.593                         11.8
 21865.069      26.0      6.96    -7.396                        128.4
 21865.069      26.0      6.96    -7.909                        128.4
 21945.156      26.0      6.87    -7.837                         86.0
 21945.233      26.0      6.87    -7.949                         87.6
 22105.474      26.0      5.83    -5.417                         31.6
 22200.411      26.0      7.09    -8.179                         30.3
 22257.107      26.0      5.06    -0.704                        120.5
 22286.515      26.0      2.99   -12.283                         13.6
 22313.306      26.0      6.59    -4.170                          7.2
 22345.545      26.0      6.77    -3.841                         54.0
 22380.797      26.0      5.03    -0.464                        150.8
 22385.102      26.0      5.32    -1.358                         36.7
 22392.879      26.0      5.10    -1.242                         59.9
 22405.425      26.0      6.32    -5.729                         12.4
 22408.624      26.0      5.81    -2.869                         34.0
 22419.982      26.0      6.22    -0.155                         64.1
 22465.355      26.0      6.54    -3.966                        162.7
 22466.566      26.0      6.67    -3.627                        150.7
 22487.508      26.0      6.41    -5.503                          9.1
 22490.690      26.0      6.56    -4.661                         55.7
 22491.520      26.0      6.72    -1.805                         82.6
 22493.671      26.0      5.83    -0.865                         13.2
 22499.503      26.0      5.83    -3.518                        135.0
 22503.529      26.0      5.81    -3.869                         36.7
 22505.267      26.0      5.64    -3.549                         18.3
 22512.995      26.0      6.73    -3.959                          6.3
 22519.030      26.0      7.08    -8.132                         23.9
 22519.030      26.0      7.08    -8.859                         23.9
 22619.838      26.0      4.99    -0.355                        189.4
 22695.019      26.0      6.74    -2.647                         15.4
 22713.055      26.0      7.06    -7.667                          7.9
 22744.902      26.0      7.08    -2.906                         26.4
 22744.902      26.0      7.08    -3.539                         26.4
 22777.073      26.0      7.09    -8.418                         25.4
 22860.903      26.0      5.85    -4.448                         58.0
 22966.622      26.0      5.83    -5.530                         26.4
 22996.344      26.0      6.67    -4.243                         42.4
 22997.037      26.0      6.71    -4.383                        142.2
 23013.140      26.0      7.20    -1.715                         20.1
 23016.441      26.0      6.99    -6.730                         60.7
 23016.441      26.0      6.99    -6.897                         60.7
 23020.252      26.0      6.34    -5.974                         68.9
 23072.125      26.0      5.41    -4.230                         47.8
 23144.587      26.0      6.17    -0.069                         78.7
 23192.615      26.0      6.64    -5.856                        138.0
 23193.148      26.0      7.04    -2.348                         45.9
 23193.148      26.0      7.04    -4.457                         45.9
 23199.520      26.0      7.04    -4.492                         24.3
 23199.520      26.0      7.04    -4.555                         24.3
 23199.520      26.0      7.04    -5.535                         24.3
 23241.729      26.0      6.40    -3.577                         37.3
 23299.677      26.0      6.73    -1.678                         27.6
 23302.409      26.0      5.87    -2.779                        177.7
 23308.478      26.0      4.08    -2.317                         33.3
 23325.195      26.0      5.72    -1.976                         11.9
 23453.245      26.0      7.04    -7.536                         75.7
 23493.109      26.0      7.00    -5.977                         93.1
 23493.109      26.0      7.00    -6.465                         93.1
 23502.797      26.0      5.80    -4.227                        152.8
 23532.306      26.0      6.51    -3.689                         14.8
 23566.249      26.0      5.84    -3.290                         70.2
 23598.976      26.0      5.93    -7.150                         25.3
 23645.163      26.0      6.76    -2.696                         57.2
 23649.034      26.0      6.68    -2.053                         16.2
 23649.050      26.0      6.88    -8.384                         16.2
 23745.113      26.0      6.14    -4.718                         40.1
 23746.218      26.0      6.92    -5.040                         31.4
 23746.218      26.0      6.92    -7.551                         31.4
 23747.228      26.0      6.71    -3.558                        101.5
 23811.538      26.0      7.09    -7.622                         13.7
 23885.176      26.0      6.59    -4.093                         18.1
 23924.451      26.0      6.25    -0.139                         59.0
 23949.571      26.0      6.64    -4.126                         33.2
 23982.981      26.0      6.67    -2.503                        140.8
 24074.636      26.0      6.20    -3.153                        154.6
 24271.639      26.0      7.06    -6.814                         88.3
 24308.394      26.0      7.06    -6.164                         25.9
 24308.394      26.0      7.06    -6.727                         25.9
 24318.009      26.0      7.12    -7.770                         14.5
 24374.358      26.0      6.24     0.353                        104.0
 24400.861      26.0      7.00    -5.586                         15.5
 24411.062      26.0      6.64    -3.317                         39.2
 24419.075      26.0      6.66    -2.393                         15.7
 24438.051      26.0      6.66    -4.688                         53.0
 24485.528      26.0      5.84    -2.487                         14.3
 24487.669      26.0      5.03    -1.290                         46.1
 24488.251      26.0      6.17    -5.545                         14.7
 24489.235      26.0      6.80    -1.222                         23.4
 24552.005      26.0      5.92    -0.860                         27.0
 24640.622      26.0      6.66    -3.050                         29.3
 24648.429      26.0      6.27    -0.031                         63.2
